participant,trial,accuracy,rt
1,0,0,2452
1,1,0,1626
1,2,1,1782
1,3,1,3306
1,4,1,3377
1,5,1,1319
1,6,1,1044
1,7,1,1137
1,8,1,1220
1,9,1,1247
1,10,1,1138
1,11,1,981
1,12,1,1183
1,13,1,808
1,14,1,953
1,15,1,786
2,0,1,2452
2,1,0,2889
2,2,0,1713
2,3,1,2198
2,4,1,2858
2,5,0,2058
2,6,1,3236
2,7,1,1411
2,8,0,1273
2,9,1,1202
2,10,0,1096
2,11,0,1276
2,12,0,1240
2,13,1,1130
2,14,0,1273
2,15,1,1168
3,0,0,8312
3,1,0,2620
3,2,0,1947
3,3,1,1367
3,4,1,2673
3,5,1,1518
3,6,1,1836
3,7,1,1882
3,8,1,1416
3,9,1,1574
3,10,1,1878
3,11,1,1060
3,12,1,1429
3,13,1,3073
3,14,1,1537
3,15,1,1698
4,0,1,2583
4,1,1,1559
4,2,0,2335
4,3,0,3463
4,4,1,935
4,5,0,1840
4,6,1,2215
4,7,1,919
4,8,1,863
4,9,1,728
4,10,1,951
4,11,1,1111
4,12,1,887
4,13,1,807
4,14,1,1055
4,15,1,687
5,0,1,2531
5,1,1,2171
5,2,0,1724
5,3,0,1920
5,4,0,2219
5,5,1,1147
5,6,0,2061
5,7,1,858
5,8,0,2551
5,9,1,665
5,10,0,1274
5,11,1,959
5,12,1,1193
5,13,1,1720
5,14,1,883
5,15,1,603
6,0,0,2439
6,1,1,1191
6,2,0,1360
6,3,1,959
6,4,0,1519
6,5,1,1239
6,6,1,1431
6,7,1,1391
6,8,1,1368
6,9,0,1808
6,10,1,2015
6,11,1,1079
6,12,1,1455
6,13,1,1112
6,14,1,1304
6,15,1,2607
7,0,1,2946
7,1,0,2021
7,2,0,3061
7,3,1,1685
7,4,1,2062
7,5,1,1031
7,6,1,1326
7,7,1,758
7,8,1,1206
7,9,1,1270
7,10,1,1086
7,11,1,863
7,12,1,918
7,13,1,1111
7,14,1,1726
7,15,1,1134
8,0,1,5750
8,1,1,2237
8,2,1,2522
8,3,0,2678
8,4,1,1609
8,5,0,1742
8,6,0,2146
8,7,0,1101
8,8,0,1343
8,9,0,1194
8,10,1,879
8,11,0,1158
8,12,1,1218
8,13,1,1190
8,14,1,1069
8,15,1,1043
9,0,1,2898
9,1,1,1011
9,2,1,1435
9,3,0,2029
9,4,1,1455
9,5,1,1521
9,6,0,896
9,7,1,1199
9,8,1,881
9,9,1,1019
9,10,0,977
9,11,1,905
9,12,1,981
9,13,1,1507
9,14,1,1039
9,15,1,1854
10,0,1,9045
10,1,0,1853
10,2,0,1703
10,3,1,2601
10,4,1,2477
10,5,1,2545
10,6,1,1143
10,7,1,2250
10,8,1,1081
10,9,1,983
10,10,1,911
10,11,1,1431
10,12,1,1499
10,13,1,1991
10,14,1,2825
10,15,1,1223
11,0,1,3129
11,1,1,2099
11,2,1,1723
11,3,1,1408
11,4,1,1855
11,5,1,1271
11,6,1,1502
11,7,1,2449
11,8,1,1162
11,9,1,1242
11,10,1,1327
11,11,1,1092
11,12,1,1346
11,13,1,1181
11,14,1,1264
11,15,1,1492
12,0,0,5094
12,1,0,6551
12,2,1,2255
12,3,1,925
12,4,1,1199
12,5,1,1983
12,6,1,1271
12,7,1,805
12,8,1,775
12,9,1,950
12,10,1,953
12,11,1,942
12,12,1,791
12,13,1,711
12,14,1,703
12,15,1,678
13,0,0,8488
13,1,0,2082
13,2,1,1453
13,3,1,1343
13,4,1,941
13,5,1,1196
13,6,1,1008
13,7,1,747
13,8,1,1110
13,9,1,717
13,10,1,1526
13,11,1,821
13,12,1,1233
13,13,1,1606
13,14,1,1035
13,15,1,2743
14,0,1,6400
14,1,1,1564
14,2,1,2932
14,3,0,1181
14,4,1,1666
14,5,1,1498
14,6,1,1916
14,7,1,2047
14,8,1,981
14,9,1,1150
14,10,1,965
14,11,1,899
14,12,1,1348
14,13,1,948
14,14,1,1231
14,15,1,898
15,0,1,4663
15,1,0,1608
15,2,1,1072
15,3,1,752
15,4,1,871
15,5,1,631
15,6,1,569
15,7,1,887
15,8,1,991
15,9,1,1792
15,10,1,1367
15,11,1,976
15,12,1,1128
15,13,1,871
15,14,1,903
15,15,1,864
16,0,0,2417
16,1,0,3280
16,2,1,1147
16,3,1,1882
16,4,1,1689
16,5,1,2025
16,6,0,3948
16,7,1,1098
16,8,1,1664
16,9,1,1473
16,10,1,2505
16,11,1,1868
16,12,1,1449
16,13,1,2001
16,14,1,3283
16,15,1,1495
17,0,0,4471
17,1,1,1287
17,2,0,1935
17,3,1,1792
17,4,0,2047
17,5,1,927
17,6,1,2855
17,7,1,1415
17,8,0,1647
17,9,0,2039
17,10,1,855
17,11,1,3759
17,12,0,1191
17,13,1,1024
17,14,1,840
17,15,1,5136
18,0,0,7491
18,1,0,1198
18,2,0,1771
18,3,1,1467
18,4,0,2335
18,5,1,1445
18,6,0,1003
18,7,0,889
18,8,1,671
18,9,0,1483
18,10,1,795
18,11,1,1059
18,12,0,735
18,13,0,890
18,14,1,779
18,15,1,1067
19,0,0,3665
19,1,1,3215
19,2,1,1532
19,3,1,1632
19,4,1,1265
19,5,1,1532
19,6,1,1098
19,7,1,1181
19,8,1,1348
19,9,1,1165
19,10,1,1098
19,11,1,1181
19,12,1,1082
19,13,1,1815
19,14,1,1032
19,15,1,1432
20,0,1,2939
20,1,1,2256
20,2,1,980
20,3,1,1179
20,4,0,2031
20,5,1,1464
20,6,1,1915
20,7,1,1282
20,8,0,1080
20,9,1,930
20,10,1,1007
20,11,1,925
20,12,1,1646
20,13,1,1105
20,14,1,1256
20,15,1,1024
21,0,1,3791
21,1,0,2316
21,2,1,6114
21,3,1,1654
21,4,1,1354
21,5,1,1327
21,6,1,1635
21,7,1,1570
21,8,1,2168
21,9,1,1339
21,10,1,4784
21,11,1,1298
21,12,1,1492
21,13,1,1095
21,14,1,1634
21,15,1,3777
22,0,0,9967
22,1,0,3521
22,2,1,3269
22,3,1,1701
22,4,1,3679
22,5,1,1881
22,6,1,1489
22,7,1,1962
22,8,1,1102
22,9,1,1315
22,10,1,1245
22,11,1,953
22,12,1,1259
22,13,1,1094
22,14,1,1055
22,15,1,1978
23,0,1,7822
23,1,1,2783
23,2,1,1545
23,3,1,1997
23,4,0,1664
23,5,0,2211
23,6,0,1384
23,7,1,1610
23,8,1,2213
23,9,1,1527
23,10,0,2345
23,11,0,1039
23,12,1,1084
23,13,1,1449
23,14,1,2361
23,15,1,1615
24,0,1,2733
24,1,1,1519
24,2,0,1576
24,3,0,1903
24,4,1,1321
24,5,1,1142
24,6,1,1208
24,7,1,1151
24,8,1,1767
24,9,1,1073
24,10,1,1284
24,11,1,10275
24,12,1,853
24,13,1,760
24,14,1,6546
24,15,1,904
25,0,1,7462
25,1,1,2648
25,2,1,2613
25,3,1,3827
25,4,1,5277
25,5,1,5648
25,6,1,8229
25,7,0,5628
25,8,0,6080
25,9,1,3648
25,10,0,3351
25,11,1,2347
25,12,1,2281
25,13,1,3211
25,14,0,3347
25,15,0,2862
26,0,0,11330
26,1,0,4621
26,2,0,49733
26,3,0,1507
26,4,1,1500
26,5,1,1773
26,6,1,1568
26,7,1,1779
26,8,1,2020
26,9,1,199291
26,10,1,2083
26,11,1,557061
26,12,1,1769
26,13,1,1458
26,14,1,2229
26,15,1,1956
27,0,0,2593
27,1,1,2084
27,2,0,1551
27,3,0,662
27,4,0,1623
27,5,0,1955
27,6,1,702
27,7,1,3087
27,8,0,985
27,9,1,3467
27,10,1,2027
27,11,1,1348
27,12,1,1325
27,13,1,920
27,14,1,1260
27,15,0,1631
28,0,1,2853
28,1,0,2086
28,2,0,2735
28,3,0,3327
28,4,1,2614
28,5,0,2961
28,6,1,1614
28,7,0,2990
28,8,1,1428
28,9,1,2413
28,10,0,2396
28,11,1,1218
28,12,0,794
28,13,1,940
28,14,0,2531
28,15,1,2616
29,0,0,5096
29,1,0,3742
29,2,1,3339
29,3,0,2960
29,4,1,4012
29,5,1,4171
29,6,1,1701
29,7,1,1510
29,8,1,1629
29,9,1,1447
29,10,1,1677
29,11,1,1004
29,12,1,1004
29,13,1,1020
29,14,1,1060
29,15,1,1234
30,0,1,5407
30,1,1,2519
30,2,1,3159
30,3,1,1222
30,4,0,2444
30,5,1,3607
30,6,1,1769
30,7,1,1574
30,8,0,1064
30,9,0,1867
30,10,1,3419
30,11,1,4469
30,12,1,2175
30,13,1,3674
30,14,0,3472
30,15,1,2684
31,0,1,8149
31,1,0,6051
31,2,1,3026
31,3,1,4385
31,4,0,2785
31,5,0,5484
31,6,0,2428
31,7,0,4840
31,8,0,3876
31,9,0,4155
31,10,0,4822
31,11,0,3205
31,12,0,3538
31,13,0,1875
31,14,0,3050
31,15,1,4190
32,0,1,3399
32,1,0,4263
32,2,1,1575
32,3,0,1448
32,4,1,1319
32,5,1,1647
32,6,1,1104
32,7,1,911
32,8,1,847
32,9,1,1152
32,10,1,1104
32,11,1,2455
32,12,1,1304
32,13,1,943
32,14,1,935
32,15,1,687
33,0,0,3454
33,1,1,893
33,2,1,1111
33,3,0,814
33,4,1,6095
33,5,1,1541
33,6,0,599
33,7,1,702
33,8,0,550
33,9,1,942
33,10,0,486
33,11,0,559
33,12,1,606
33,13,0,574
33,14,0,553
33,15,1,606
34,0,0,2597
34,1,1,2935
34,2,1,2354
34,3,1,1418
34,4,1,1052
34,5,1,1163
34,6,1,1156
34,7,1,1145
34,8,1,1123
34,9,1,1130
34,10,1,646
34,11,1,1191
34,12,1,1221
34,13,1,1351
34,14,1,1114
34,15,0,831
35,0,0,10145
35,1,1,2975
35,2,0,2259
35,3,1,2302
35,4,1,2990
35,5,1,1618
35,6,1,2309
35,7,1,2379
35,8,1,2088
35,9,1,11241
35,10,1,2902
35,11,1,2204
35,12,1,2806
35,13,1,4235
35,14,1,2954
35,15,1,2628
36,0,0,4329
36,1,1,2040
36,2,1,1596
36,3,0,3006
36,4,1,3070
36,5,1,1639
36,6,1,1691
36,7,1,2154
36,8,1,1786
36,9,1,2202
36,10,1,2586
36,11,1,1865
36,12,1,1545
36,13,1,1626
36,14,1,1500
36,15,1,1355
37,0,0,2915
37,1,1,1523
37,2,1,2282
37,3,1,2357
37,4,1,851
37,5,1,864
37,6,1,2074
37,7,1,1005
37,8,1,935
37,9,1,1067
37,10,1,1006
37,11,1,1121
37,12,1,1739
37,13,1,2975
37,14,1,804
37,15,1,1068
38,0,0,3057
38,1,1,124
38,2,0,1909
38,3,1,1629
38,4,0,85
38,5,1,2072
38,6,1,1361
38,7,1,1211
38,8,1,1492
38,9,1,1383
38,10,1,1296
38,11,1,1166
38,12,1,2947
38,13,1,1522
38,14,1,1100
38,15,1,1936
39,0,1,7359
39,1,0,3647
39,2,1,3295
39,3,1,2583
39,4,0,2959
39,5,1,1888
39,6,1,1791
39,7,1,1583
39,8,1,1463
39,9,1,1471
39,10,1,1423
39,11,1,1535
39,12,1,1375
39,13,1,1471
39,14,1,1551
39,15,1,1520
40,0,1,5090
40,1,1,3713
40,2,1,3444
40,3,1,3008
40,4,0,3546
40,5,1,3546
40,6,1,2498
40,7,1,2870
40,8,1,6174
40,9,1,2857
40,10,0,7594
40,11,1,2974
40,12,1,2504
40,13,1,2460
40,14,1,2269
40,15,1,2185
41,0,1,6386
41,1,0,3726
41,2,0,3891
41,3,1,5132
41,4,1,1794
41,5,1,1548
41,6,1,1378
41,7,1,1925
41,8,1,6351
41,9,1,1718
41,10,1,1136
41,11,1,2335
41,12,1,2675
41,13,1,1749
41,14,1,1812
41,15,1,3062
42,0,0,2526
42,1,1,2440
42,2,1,2181
42,3,1,1879
42,4,1,1170
42,5,1,1565
42,6,1,1593
42,7,1,1334
42,8,1,959
42,9,1,1658
42,10,1,1980
42,11,1,1133
42,12,1,1026
42,13,1,5348
42,14,1,1062
42,15,1,1104
43,0,1,6704
43,1,0,2640
43,2,1,3617
43,3,1,1352
43,4,1,1119
43,5,1,3105
43,6,1,980
43,7,1,987
43,8,1,889
43,9,1,587
43,10,1,555
43,11,1,485
43,12,1,564
43,13,1,612
43,14,1,507
43,15,1,580
44,0,0,2156
44,1,1,1574
44,2,1,1761
44,3,1,1431
44,4,1,1286
44,5,1,1211
44,6,1,1187
44,7,1,1321
44,8,1,1181
44,9,1,1117
44,10,1,921
44,11,1,1045
44,12,1,808
44,13,1,1165
44,14,1,998
44,15,1,1149
45,0,0,10202
45,1,1,4249
45,2,1,1624
45,3,1,2721
45,4,1,3792
45,5,1,3920
45,6,0,3240
45,7,0,2720
45,8,0,2655
45,9,0,2968
45,10,0,1816
45,11,0,2927
45,12,1,1856
45,13,1,3088
45,14,0,3024
45,15,0,1887
46,0,0,5422
46,1,0,2747
46,2,0,1519
46,3,0,1633
46,4,1,1990
46,5,1,1259
46,6,1,1363
46,7,1,1508
46,8,1,1206
46,9,1,2449
46,10,1,1613
46,11,1,1248
46,12,1,1311
46,13,1,1487
46,14,1,1748
46,15,1,1186
47,0,1,11911
47,1,0,7575
47,2,1,3919
47,3,1,2887
47,4,1,7296
47,5,1,2368
47,6,1,2143
47,7,0,2919
47,8,1,1551
47,9,1,1911
47,10,1,2503
47,11,0,29511
47,12,0,1896
47,13,0,3200
47,14,1,919
47,15,0,1551
48,0,1,6370
48,1,1,3609
48,2,0,2046
48,3,1,1742
48,4,0,3544
48,5,1,3311
48,6,0,2293
48,7,1,1429
48,8,1,2463
48,9,1,2063
48,10,1,1447
48,11,1,941
48,12,1,1562
48,13,1,1278
48,14,1,1711
48,15,0,1063
49,0,0,2800
49,1,1,1767
49,2,1,1575
49,3,1,959
49,4,1,967
49,5,1,767
49,6,1,654
49,7,1,1031
49,8,1,687
49,9,1,656
49,10,1,1351
49,11,1,631
49,12,1,807
49,13,1,1071
49,14,1,631
49,15,1,760
50,0,1,3684
50,1,1,2254
50,2,1,1634
50,3,1,1745
50,4,1,1175
50,5,1,1579
50,6,1,1140
50,7,1,1399
50,8,1,1507
50,9,1,2012
50,10,1,1344
50,11,1,1287
50,12,1,1872
50,13,1,1798
50,14,1,818
50,15,1,881
51,0,0,6213
51,1,0,4299
51,2,0,2289
51,3,1,2839
51,4,0,2686
51,5,0,3300
51,6,0,2340
51,7,1,3706
51,8,1,2072
51,9,0,2087
51,10,0,4200
51,11,1,3850
51,12,1,4287
51,13,0,1792
51,14,1,1947
51,15,1,4973
52,0,0,6947
52,1,0,2260
52,2,0,3107
52,3,1,2250
52,4,1,2029
52,5,0,1570
52,6,1,1761
52,7,1,2067
52,8,0,1811
52,9,1,1722
52,10,1,1144
52,11,1,1566
52,12,1,1532
52,13,1,1316
52,14,1,1264
52,15,1,1233
53,0,0,3469
53,1,0,1437
53,2,1,1642
53,3,0,1600
53,4,1,1832
53,5,1,1166
53,6,1,1542
53,7,0,1308
53,8,1,1133
53,9,0,1225
53,10,1,2890
53,11,1,2310
53,12,1,2222
53,13,1,2770
53,14,0,1006
53,15,0,1984
54,0,0,4535
54,1,0,1389
54,2,0,1226
54,3,0,1332
54,4,1,1206
54,5,1,1222
54,6,1,1051
54,7,0,1004
54,8,0,1630
54,9,1,1931
54,10,1,1188
54,11,0,1058
54,12,0,1176
54,13,0,1138
54,14,1,1561
54,15,0,1283
55,0,0,7752
55,1,1,3390
55,2,1,2391
55,3,1,1617
55,4,1,1339
55,5,1,900
55,6,1,823
55,7,1,865
55,8,1,1302
55,9,1,1323
55,10,1,1261
55,11,1,1038
55,12,1,2392
55,13,1,1120
55,14,0,1230
55,15,1,1011
56,0,1,2696
56,1,1,2063
56,2,1,5415
56,3,0,2164
56,4,0,1314
56,5,0,1148
56,6,1,1065
56,7,0,1565
56,8,1,1298
56,9,0,1898
56,10,1,1381
56,11,0,1067
56,12,0,1282
56,13,0,2982
56,14,0,1048
56,15,1,1498
57,0,1,2880
57,1,0,2384
57,2,1,5063
57,3,1,1719
57,4,0,2110
57,5,1,2416
57,6,1,4957
57,7,1,1616
57,8,1,2759
57,9,1,1209
57,10,1,1003
57,11,1,1221
57,12,1,2148
57,13,1,1155
57,14,1,1081
57,15,0,2456
58,0,1,6135
58,1,0,3943
58,2,1,2903
58,3,0,4551
58,4,1,2159
58,5,1,1609
58,6,1,1199
58,7,1,1439
58,8,1,3984
58,9,1,1072
58,10,1,1071
58,11,1,1232
58,12,1,2455
58,13,1,1231
58,14,1,1063
58,15,1,4000
59,0,0,3105
59,1,0,3074
59,2,1,2270
59,3,1,1710
59,4,0,1715
59,5,0,1865
59,6,1,2219
59,7,1,1355
59,8,1,1230
59,9,0,2549
59,10,1,1454
59,11,0,1655
59,12,1,1694
59,13,1,1490
59,14,1,1664
59,15,0,3330
60,0,0,2569
60,1,1,1959
60,2,1,1556
60,3,1,1184
60,4,1,1811
60,5,1,1507
60,6,1,990
60,7,0,2400
60,8,0,866
60,9,1,914
60,10,1,2708
60,11,1,1850
60,12,1,1479
60,13,0,1456
60,14,1,1052
60,15,1,1083
61,0,0,5079
61,1,1,1719
61,2,1,1271
61,3,1,3839
61,4,1,1383
61,5,1,2183
61,6,1,943
61,7,1,1231
61,8,1,1263
61,9,1,871
61,10,1,1207
61,11,1,911
61,12,1,2095
61,13,1,2199
61,14,1,1263
61,15,1,1295
62,0,0,10443
62,1,1,3411
62,2,0,7551
62,3,1,2735
62,4,1,2174
62,5,1,4189
62,6,1,2353
62,7,1,1940
62,8,1,4045
62,9,1,2860
62,10,1,3373
62,11,1,3880
62,12,1,1833
62,13,1,4420
62,14,1,7423
62,15,1,2969
63,0,0,6093
63,1,0,2822
63,2,0,3166
63,3,0,3051
63,4,0,4185
63,5,1,1798
63,6,1,3773
63,7,1,3164
63,8,0,3938
63,9,0,1708
63,10,0,3986
63,11,0,2583
63,12,1,1266
63,13,0,2634
63,14,0,5069
63,15,0,1800
64,0,1,2568
64,1,0,1319
64,2,1,897
64,3,0,1209
64,4,0,684
64,5,0,402
64,6,0,604
64,7,0,539
64,8,1,448
64,9,0,1056
64,10,0,580
64,11,0,718
64,12,0,502
64,13,1,581
64,14,0,760
64,15,0,1031
65,0,0,2865
65,1,1,2955
65,2,1,1587
65,3,1,1039
65,4,1,1371
65,5,1,2047
65,6,1,955
65,7,1,1014
65,8,1,1255
65,9,1,1149
65,10,1,1983
65,11,1,895
65,12,1,1403
65,13,1,959
65,14,1,1243
65,15,1,845
66,0,0,4900
66,1,0,2396
66,2,1,2387
66,3,0,2262
66,4,1,3060
66,5,1,2069
66,6,1,1094
66,7,1,1146
66,8,1,1127
66,9,1,1058
66,10,1,964
66,11,1,863
66,12,1,919
66,13,1,912
66,14,1,841
66,15,1,963
67,0,1,4324
67,1,1,4606
67,2,0,4231
67,3,0,3056
67,4,0,4481
67,5,0,3217
67,6,1,2923
67,7,1,1953
67,8,1,1327
67,9,1,1335
67,10,1,1295
67,11,1,1178
67,12,1,1715
67,13,1,1528
67,14,1,1668
67,15,1,1317
68,0,0,3543
68,1,0,2407
68,2,1,1934
68,3,1,1597
68,4,1,1968
68,5,1,1214
68,6,1,1417
68,7,1,1248
68,8,1,1305
68,9,1,1451
68,10,1,1496
68,11,1,1057
68,12,1,989
68,13,1,1203
68,14,1,1349
68,15,1,1046
69,0,1,3237
69,1,0,1222
69,2,1,1847
69,3,1,967
69,4,1,1087
69,5,1,1055
69,6,1,895
69,7,1,1183
69,8,1,1742
69,9,1,775
69,10,1,1102
69,11,1,1502
69,12,1,1134
69,13,1,2262
69,14,1,1207
69,15,1,1559
70,0,0,6986
70,1,1,1639
70,2,0,1583
70,3,1,2251
70,4,1,1504
70,5,1,1973
70,6,0,1176
70,7,1,1947
70,8,1,1117
70,9,0,1658
70,10,1,1345
70,11,1,1409
70,12,1,1089
70,13,1,1282
70,14,1,1592
70,15,1,1050
71,0,0,6860
71,1,0,5736
71,2,0,3397
71,3,0,4602
71,4,0,2827
71,5,0,1727
71,6,1,1439
71,7,1,2659
71,8,0,1747
71,9,0,3020
71,10,1,1766
71,11,0,1231
71,12,0,2408
71,13,1,1163
71,14,1,1164
71,15,0,769
72,0,0,4833
72,1,1,1240
72,2,0,2963
72,3,1,1441
72,4,0,1633
72,5,1,2201
72,6,1,1208
72,7,0,2638
72,8,1,1024
72,9,1,972
72,10,1,1008
72,11,0,1607
72,12,1,1370
72,13,0,139
72,14,1,927
72,15,1,1209
73,0,0,3093
73,1,1,3296
73,2,1,1734
73,3,0,4432
73,4,1,1259
73,5,0,2497
73,6,0,1741
73,7,1,2993
73,8,1,1044
73,9,1,2374
73,10,1,2058
73,11,1,1102
73,12,1,1687
73,13,1,1699
73,14,1,2880
73,15,1,2306
74,0,1,8603
74,1,1,6036
74,2,1,5504
74,3,0,6201
74,4,1,3119
74,5,1,2681
74,6,1,2022
74,7,1,3616
74,8,1,2690
74,9,1,2047
74,10,1,2906
74,11,1,1784
74,12,1,1974
74,13,1,1931
74,14,1,1695
74,15,1,2079
75,0,1,4417
75,1,1,3944
75,2,1,2476
75,3,1,1492
75,4,0,1829
75,5,1,2332
75,6,0,3261
75,7,1,2459
75,8,1,1286
75,9,1,1788
75,10,1,1727
75,11,1,1365
75,12,1,1315
75,13,1,3391
75,14,1,1101
75,15,1,3923
76,0,0,12799
76,1,1,3386
76,2,1,4198
76,3,1,2523
76,4,1,2581
76,5,0,1616
76,6,1,1414
76,7,0,4323
76,8,1,2099
76,9,0,1994
76,10,0,1849
76,11,0,1861
76,12,1,5091
76,13,1,2739
76,14,0,3878
76,15,1,3413
77,0,0,7428
77,1,0,1207
77,2,0,1166
77,3,1,559
77,4,1,1299
77,5,1,647
77,6,0,1099
77,7,0,1779
77,8,0,955
77,9,1,463
77,10,1,311
77,11,1,495
77,12,0,6585
77,13,0,631
77,14,1,303
77,15,0,367
78,0,0,5957
78,1,0,3639
78,2,0,3937
78,3,1,753
78,4,1,1390
78,5,1,955
78,6,1,1520
78,7,1,969
78,8,1,1101
78,9,1,1146
78,10,1,1251
78,11,1,1202
78,12,1,1340
78,13,1,919
78,14,1,1143
78,15,1,965
79,0,1,5030
79,1,0,1330
79,2,1,1397
79,3,1,1945
79,4,1,864
79,5,1,815
79,6,1,631
79,7,1,799
79,8,0,903
79,9,1,999
79,10,1,587
79,11,1,1089
79,12,1,609
79,13,0,657
79,14,1,1033
79,15,1,1041
80,0,1,4041
80,1,0,2673
80,2,0,1291
80,3,0,1374
80,4,0,1789
80,5,1,1371
80,6,0,754
80,7,0,1197
80,8,0,1159
80,9,1,1077
80,10,0,1262
80,11,1,1497
80,12,1,1060
80,13,0,1220
80,14,1,1770
80,15,1,927
81,0,0,13777
81,1,0,3042
81,2,1,4415
81,3,0,2011
81,4,0,3923
81,5,1,1846
81,6,1,3035
81,7,1,2753
81,8,0,3963
81,9,1,1436
81,10,1,1529
81,11,0,1491
81,12,0,1652
81,13,0,1217
81,14,1,1473
81,15,0,999
82,0,0,4997
82,1,1,2255
82,2,1,2585
82,3,0,2698
82,4,1,1885
82,5,1,1672
82,6,1,2228
82,7,1,1589
82,8,1,1757
82,9,0,1666
82,10,1,1310
82,11,0,2583
82,12,0,1852
82,13,1,1314
82,14,0,2389
82,15,0,3403
83,0,0,2287
83,1,1,2039
83,2,0,1871
83,3,1,1847
83,4,0,2471
83,5,1,1184
83,6,1,1063
83,7,1,1256
83,8,1,1343
83,9,1,1543
83,10,0,1415
83,11,1,1016
83,12,1,1271
83,13,1,671
83,14,1,1023
83,15,1,951
84,0,1,4471
84,1,1,3295
84,2,1,2959
84,3,1,2711
84,4,1,4759
84,5,1,6143
84,6,1,2287
84,7,1,2279
84,8,1,1615
84,9,1,2150
84,10,1,4263
84,11,1,2207
84,12,1,1583
84,13,1,6023
84,14,1,2519
84,15,1,3391
85,0,0,5295
85,1,0,3343
85,2,1,3182
85,3,1,2831
85,4,1,1625
85,5,1,4805
85,6,0,2163
85,7,0,2014
85,8,1,1721
85,9,0,2701
85,10,0,3554
85,11,1,2733
85,12,0,1411
85,13,1,2781
85,14,1,3793
85,15,1,2139
86,0,0,8000
86,1,1,3684
86,2,1,2217
86,3,1,7868
86,4,1,2082
86,5,1,2150
86,6,1,5483
86,7,1,1200
86,8,1,1783
86,9,1,1949
86,10,1,2333
86,11,1,1049
86,12,1,1866
86,13,1,1132
86,14,1,1216
86,15,1,2983
87,0,0,3189
87,1,0,2200
87,2,1,2606
87,3,1,1905
87,4,0,2002
87,5,0,1613
87,6,1,7513
87,7,1,2411
87,8,0,981
87,9,1,2507
87,10,0,1698
87,11,1,1051
87,12,1,1397
87,13,1,1117
87,14,1,900
87,15,1,767
88,0,1,3131
88,1,1,3166
88,2,1,1570
88,3,1,1348
88,4,0,1453
88,5,1,1276
88,6,0,1512
88,7,0,1328
88,8,0,2818
88,9,1,1964
88,10,0,1684
88,11,1,1206
88,12,1,1176
88,13,1,1099
88,14,1,1026
88,15,0,1011
89,0,1,8503
89,1,1,4445
89,2,0,4407
89,3,0,4211
89,4,1,6571
89,5,1,3523
89,6,1,7579
89,7,1,2217
89,8,1,2884
89,9,1,3329
89,10,1,3240
89,11,1,3119
89,12,0,3527
89,13,1,1434
89,14,1,2387
89,15,1,2446
90,0,1,4943
90,1,0,2780
90,2,1,2772
90,3,0,2990
90,4,1,2555
90,5,1,831
90,6,1,1014
90,7,1,1005
90,8,1,1251
90,9,1,972
90,10,1,1223
90,11,1,988
90,12,1,2238
90,13,1,808
90,14,1,880
90,15,1,1102
91,0,1,5383
91,1,1,2549
91,2,1,1311
91,3,0,1703
91,4,1,3471
91,5,1,1447
91,6,1,2663
91,7,1,1655
91,8,1,1004
91,9,1,1177
91,10,1,1039
91,11,1,1030
91,12,1,1631
91,13,1,1214
91,14,1,998
91,15,1,1111
92,0,0,3125
92,1,1,1589
92,2,0,2192
92,3,0,1823
92,4,0,1913
92,5,1,1825
92,6,0,1316
92,7,1,2302
92,8,0,3047
92,9,1,2179
92,10,1,1693
92,11,1,1624
92,12,1,1527
92,13,0,2988
92,14,0,1487
92,15,1,1400
93,0,1,8712
93,1,0,2528
93,2,0,1460
93,3,1,2718
93,4,1,1758
93,5,1,1605
93,6,1,1597
93,7,0,1429
93,8,0,1572
93,9,1,1499
93,10,1,1211
93,11,0,2927
93,12,1,1282
93,13,1,1441
93,14,1,3814
93,15,0,2344
94,0,0,7103
94,1,0,2127
94,2,1,2311
94,3,1,1531
94,4,1,57932
94,5,1,1603
94,6,1,8439
94,7,1,1491
94,8,1,1527
94,9,1,1459
94,10,1,3436
94,11,1,995
94,12,1,1576
94,13,1,1544
94,14,1,1095
94,15,1,17447
95,0,1,2654
95,1,0,1724
95,2,0,1400
95,3,1,872
95,4,1,583
95,5,0,727
95,6,0,575
95,7,0,1353
95,8,1,2145
95,9,1,1212
95,10,1,992
95,11,1,1024
95,12,1,863
95,13,1,777
95,14,1,768
95,15,1,703
96,0,1,2471
96,1,0,2246
96,2,1,1204
96,3,1,1400
96,4,1,1056
96,5,1,2491
96,6,1,1203
96,7,1,1070
96,8,1,1566
96,9,1,1189
96,10,1,1187
96,11,1,1089
96,12,1,1107
96,13,1,1032
96,14,0,1767
96,15,1,945
97,0,1,8066
97,1,1,4345
97,2,0,2497
97,3,1,1663
97,4,1,1357
97,5,1,1116
97,6,1,1148
97,7,1,1432
97,8,1,964
97,9,1,1101
97,10,1,1121
97,11,1,850
97,12,1,963
97,13,1,1213
97,14,1,1231
97,15,1,873
98,0,0,4244
98,1,0,1313
98,2,1,1383
98,3,1,1743
98,4,0,2354
98,5,1,1748
98,6,1,1353
98,7,1,1259
98,8,1,1197
98,9,1,1288
98,10,1,1287
98,11,1,1737
98,12,1,1266
98,13,1,1147
98,14,1,1254
98,15,1,1480
99,0,1,3841
99,1,0,2195
99,2,0,1485
99,3,1,1309
99,4,0,1307
99,5,1,1165
99,6,1,1404
99,7,1,1586
99,8,1,841
99,9,1,1111
99,10,1,869
99,11,1,781
99,12,1,1249
99,13,1,677
99,14,1,1078
99,15,1,749
100,0,0,6883
100,1,1,9793
100,2,1,3885
100,3,1,2212
100,4,0,2813
100,5,0,12640
100,6,1,19920
100,7,1,3186
100,8,1,1763
100,9,1,1761
100,10,1,3868
100,11,1,4715
100,12,1,2318
100,13,1,1933
100,14,1,1738
100,15,1,1819
101,0,0,4035
101,1,0,1774
101,2,1,2029
101,3,1,2263
101,4,1,2210
101,5,1,1860
101,6,1,2600
101,7,1,1058
101,8,1,1742
101,9,1,1971
101,10,1,1298
101,11,1,1334
101,12,1,2891
101,13,1,2628
101,14,1,1570
101,15,1,1194
102,0,0,2817
102,1,1,2842
102,2,0,1949
102,3,0,1107
102,4,1,2285
102,5,0,1256
102,6,1,1435
102,7,1,2145
102,8,1,1779
102,9,1,1701
102,10,1,1013
102,11,1,1216
102,12,1,990
102,13,1,959
102,14,1,897
102,15,1,1280
103,0,1,18119
103,1,1,1295
103,2,0,1273
103,3,1,1302
103,4,1,1807
103,5,1,1631
103,6,1,1193
103,7,0,1459
103,8,1,2111
103,9,1,1239
103,10,1,1490
103,11,1,1449
103,12,1,1192
103,13,1,1173
103,14,1,1930
103,15,1,1694
104,0,1,3159
104,1,1,1735
104,2,0,1522
104,3,1,2230
104,4,1,1530
104,5,1,1300
104,6,1,1077
104,7,1,1012
104,8,1,1201
104,9,1,864
104,10,1,954
104,11,1,1053
104,12,1,937
104,13,1,1045
104,14,1,1291
104,15,1,781
105,0,0,3494
105,1,0,1342
105,2,1,2008
105,3,1,1326
105,4,1,1244
105,5,1,1101
105,6,1,1213
105,7,1,1605
105,8,1,1124
105,9,1,929
105,10,1,951
105,11,1,899
105,12,1,959
105,13,1,1071
105,14,1,884
105,15,1,875
106,0,1,5128
106,1,1,2126
106,2,1,1186
106,3,0,1344
106,4,1,1176
106,5,1,1560
106,6,0,2936
106,7,1,896
106,8,0,1118
106,9,1,1799
106,10,0,1670
106,11,0,769
106,12,0,850
106,13,1,662
106,14,0,979
106,15,0,544
107,0,1,6439
107,1,1,2027
107,2,0,1424
107,3,0,3672
107,4,0,2468
107,5,0,939
107,6,1,1065
107,7,1,896
107,8,1,1238
107,9,1,1026
107,10,1,1032
107,11,0,958
107,12,0,848
107,13,1,2312
107,14,1,891
107,15,1,1048
108,0,1,3920
108,1,0,2558
108,2,1,2169
108,3,1,1393
108,4,1,1280
108,5,1,1592
108,6,1,1350
108,7,0,2234
108,8,1,1638
108,9,1,2298
108,10,1,1497
108,11,1,846
108,12,1,830
108,13,1,779
108,14,1,926
108,15,1,824
109,0,0,3884
109,1,1,1964
109,2,1,1309
109,3,1,2282
109,4,0,1800
109,5,1,1820
109,6,1,1314
109,7,1,1723
109,8,1,1094
109,9,1,899
109,10,1,713
109,11,1,771
109,12,1,1252
109,13,1,1024
109,14,1,1183
109,15,1,1505
110,0,0,4192
110,1,0,2329
110,2,0,12670
110,3,1,5197
110,4,1,7811
110,5,0,8630
110,6,1,8656
110,7,1,3711
110,8,1,6393
110,9,1,3510
110,10,1,2824
110,11,1,2997
110,12,1,14773
110,13,1,2781
110,14,1,2774
110,15,1,18288
111,0,1,5432
111,1,0,1914
111,2,1,1533
111,3,1,1815
111,4,1,1797
111,5,1,1315
111,6,1,1215
111,7,1,1382
111,8,1,1317
111,9,1,2332
111,10,1,765
111,11,1,1198
111,12,1,764
111,13,0,1480
111,14,1,1299
111,15,1,898
112,0,0,6838
112,1,0,4035
112,2,1,2428
112,3,1,3771
112,4,0,2024
112,5,1,2631
112,6,1,1573
112,7,1,2804
112,8,1,2079
112,9,1,2203
112,10,1,1743
112,11,0,1304
112,12,0,1101
112,13,1,1011
112,14,0,2260
112,15,1,1011
113,0,1,10430
113,1,0,4599
113,2,1,2373
113,3,1,3186
113,4,0,2452
113,5,1,1884
113,6,1,2835
113,7,0,1668
113,8,1,1719
113,9,1,1516
113,10,0,2400
113,11,1,1870
113,12,0,2186
113,13,0,2338
113,14,1,1175
113,15,0,1945
114,0,1,4341
114,1,1,2421
114,2,1,3679
114,3,0,1480
114,4,0,3979
114,5,1,3207
114,6,1,2087
114,7,0,2109
114,8,1,3918
114,9,1,1554
114,10,1,1236
114,11,1,3174
114,12,1,3413
114,13,0,2282
114,14,0,2480
114,15,0,1799
115,0,1,9068
115,1,1,3847
115,2,0,4022
115,3,1,3127
115,4,0,3138
115,5,1,2518
115,6,0,3012
115,7,0,1365
115,8,1,1350
115,9,1,2335
115,10,1,1773
115,11,1,2781
115,12,1,1486
115,13,1,1385
115,14,0,1474
115,15,1,2102
116,0,0,4251
116,1,0,1786
116,2,1,1805
116,3,1,3043
116,4,1,2924
116,5,1,1283
116,6,1,1439
116,7,1,961
116,8,1,994
116,9,1,946
116,10,1,1050
116,11,1,782
116,12,1,1049
116,13,1,1411
116,14,1,790
116,15,1,675
117,0,1,10631
117,1,0,184
117,2,1,2828
117,3,1,971
117,4,1,3583
117,5,1,1724
117,6,1,1584
117,7,0,110
117,8,1,3974
117,9,1,1316
117,10,1,1344
117,11,1,2973
117,12,1,1179
117,13,1,1601
117,14,1,1132
117,15,1,1089
118,0,0,3674
118,1,0,1996
118,2,0,3172
118,3,0,3324
118,4,1,2758
118,5,1,2625
118,6,1,1966
118,7,1,2084
118,8,1,1691
118,9,1,2651
118,10,1,1760
118,11,1,2181
118,12,1,2645
118,13,0,2653
118,14,1,2222
118,15,1,2404
119,0,0,4566
119,1,0,5966
119,2,0,2776
119,3,1,5960
119,4,1,5032
119,5,0,3848
119,6,0,1702
119,7,0,5862
119,8,1,1190
119,9,0,3047
119,10,0,3312
119,11,0,3775
119,12,1,1174
119,13,1,8967
119,14,1,2608
119,15,0,2337
NA,0,0,6527
NA,1,1,1490
NA,2,1,720
NA,3,1,3923
NA,4,0,5913
NA,5,0,1578
NA,6,0,3615
NA,7,0,923
NA,8,1,3505
NA,9,0,2751
NA,10,1,1072
NA,11,0,3050
NA,12,1,3000
NA,13,0,3477
NA,14,1,4676
NA,15,1,2621
